Tensile stress;Tensile strain (Extension)
(MPa);(mm/mm)
0.00125;0.00001
0.00118;0.00008
0.00085;0.00018
0.00337;0.0003
0.00133;0.00041
0.00266;0.00053
0.00289;0.00067
0.00375;0.00081
0.00475;0.00096
0.00499;0.00111
0.00535;0.00126
0.00677;0.00141
0.00533;0.00156
0.00629;0.00171
0.00747;0.00187
0.00625;0.00202
0.00932;0.00218
0.01021;0.00233
0.00823;0.00249
0.01101;0.00265
0.00924;0.0028
0.00932;0.00296
0.01263;0.00313
0.01151;0.00329
0.01243;0.00345
0.0135;0.00361
0.01181;0.00377
0.01371;0.00393
0.01521;0.00409
0.01308;0.00426
0.01563;0.00442
0.01458;0.00458
0.01511;0.00474
0.01774;0.00491
0.01679;0.00506
0.01923;0.00522
0.01815;0.00539
0.01819;0.00555
0.02032;0.00571
0.01796;0.00587
0.01958;0.00603
0.02103;0.00619
0.01925;0.00635
0.02176;0.00651
0.02306;0.00667
0.02172;0.00683
0.02392;0.00699
0.02312;0.00715
0.02281;0.00731
0.02436;0.00747
0.0245;0.00762
0.02566;0.00777
0.02665;0.00794
0.02542;0.00809
0.02681;0.00825
0.02814;0.00841
0.02728;0.00856
0.02847;0.00872
0.02823;0.00889
0.02817;0.00903
0.02849;0.0092
0.02823;0.00936
0.03117;0.00952
0.02986;0.00967
0.03007;0.00983
0.03277;0.01
0.03064;0.01015
0.03221;0.01031
0.03334;0.01045
0.03252;0.01061
0.03398;0.01076
0.03417;0.0109
0.03206;0.01106
0.03569;0.0112
0.03509;0.01135
0.035;0.0115
0.0365;0.01165
0.03644;0.0118
0.03651;0.01194
0.03802;0.01208
0.03805;0.01223
0.0376;0.01237
0.03937;0.01252
0.03906;0.01266
0.0413;0.01282
0.03963;0.01297
0.04022;0.01312
0.0415;0.01327
0.04106;0.01342
0.04198;0.01357
0.04192;0.01373
0.04052;0.01387
0.04311;0.01402
0.04255;0.01417
0.04316;0.01431
0.0451;0.01446
0.04303;0.0146
0.04532;0.01475
0.04631;0.0149
0.04328;0.01505
0.04635;0.01519
0.04622;0.01534
0.04522;0.01548
0.04801;0.01564
0.04699;0.01579
0.04714;0.01594
0.04933;0.01609
0.04886;0.01624
0.05089;0.01639
0.05016;0.01654
0.0493;0.01669
0.05149;0.01683
0.05047;0.01699
0.05125;0.01713
0.05191;0.01728
0.05208;0.01743
0.05338;0.01758
0.05305;0.01773
0.05251;0.01788
0.0546;0.01803
0.05227;0.01818
0.05439;0.01832
0.0566;0.01849
0.05478;0.01863
0.05567;0.01879
0.05651;0.01893
0.05574;0.01908
0.05784;0.01923
0.05747;0.01938
0.05752;0.01953
0.06002;0.01968
0.05743;0.01984
0.05905;0.02
0.06033;0.02015
0.05832;0.02031
0.06036;0.02046
0.06097;0.02061
0.06104;0.02076
0.06253;0.02092
0.06133;0.02107
0.06232;0.02122
0.06246;0.02137
0.06271;0.02152
0.06374;0.02167
0.06451;0.02183
0.06403;0.02198
0.06601;0.02212
0.06516;0.02228
0.06494;0.02243
0.0679;0.02258
0.066;0.02274
0.06837;0.02289
0.06911;0.02304
0.06684;0.02319
0.06947;0.02334
0.06879;0.0235
0.06861;0.02365
0.07072;0.02381
0.07086;0.02396
0.07093;0.02411
0.07117;0.02426
0.07083;0.02441
0.07224;0.02456
0.07215;0.02472
0.07158;0.02488
0.0731;0.02502
0.07232;0.02518
0.07449;0.02533
0.07636;0.02548
0.07314;0.02563
0.07561;0.02578
0.07435;0.02593
0.07512;0.02608
0.07668;0.02623
0.0758;0.02638
0.07699;0.02653
0.07852;0.02667
0.07758;0.02683
0.07868;0.02697
0.07948;0.02712
0.07853;0.02727
0.08047;0.02741
0.08058;0.02757
0.07896;0.02771
0.08132;0.02786
0.08064;0.02801
0.08143;0.02815
0.08255;0.0283
0.0819;0.02844
0.08298;0.0286
0.08327;0.02875
0.08365;0.0289
0.08494;0.02905
0.08424;0.02921
0.08516;0.02936
0.08589;0.02952
0.08362;0.02967
0.087;0.02983
0.08694;0.02998
0.08626;0.03014
0.08787;0.03029
0.08689;0.03045
0.08786;0.0306
0.08982;0.03075
0.08749;0.0309
0.08941;0.03105
0.09071;0.0312
0.08884;0.03135
0.09071;0.0315
0.09147;0.03165
0.09028;0.0318
0.09266;0.03195
0.09097;0.03211
0.09179;0.03226
0.09406;0.0324
0.09352;0.03256
0.09518;0.03271
0.09404;0.03286
0.09429;0.03301
0.09503;0.03316
0.09465;0.03331
0.09633;0.03347
0.09696;0.03362
0.09569;0.03377
0.09708;0.03392
0.09748;0.03407
0.09719;0.03423
0.09953;0.03438
0.09778;0.03454
0.0986;0.0347
0.10084;0.03484
0.09917;0.035
0.10059;0.03515
0.10162;0.0353
0.09946;0.03546
0.10231;0.03562
0.10223;0.03577
0.10113;0.03592
0.10276;0.03607
0.10375;0.03623
0.10349;0.03639
0.10544;0.03654
0.10402;0.0367
0.10415;0.03685
0.1057;0.03701
0.1043;0.03716
0.10637;0.03731
0.1067;0.03746
0.10703;0.03762
0.10834;0.03777
0.10688;0.03792
0.1082;0.03807
0.10922;0.03822
0.10743;0.03837
0.10979;0.03852
0.10912;0.03867
0.10913;0.03882
0.11142;0.03897
0.11138;0.03913
0.11012;0.03927
0.11348;0.03942
0.11061;0.03957
0.11198;0.03973
0.11298;0.03988
0.1125;0.04004
0.11292;0.04018
0.11397;0.04034
0.11333;0.04048
0.11618;0.04062
0.11559;0.04075
0.11454;0.04089
0.11691;0.04102
0.11478;0.04115
0.11658;0.04129
0.11694;0.04143
0.11618;0.04157
0.11842;0.0417
0.11715;0.04184
0.11673;0.04199
0.11919;0.04213
0.11842;0.04228
0.12042;0.04243
0.1206;0.04258
0.12065;0.04274
0.12189;0.04289
0.12164;0.04305
0.12026;0.0432
0.1233;0.04336
0.12226;0.04352
0.12129;0.04369
0.12468;0.04385
0.12223;0.04401
0.12467;0.04417
0.12573;0.04433
0.12381;0.0445
0.12637;0.04466
0.12654;0.04482
0.12642;0.04498
0.1271;0.04515
0.12666;0.04531
0.12734;0.04547
0.12909;0.04564
0.12812;0.0458
0.12857;0.04595
0.13052;0.04613
0.12818;0.04629
0.13186;0.04644
0.13036;0.04661
0.13058;0.04676
0.13256;0.04692
0.13089;0.04708
0.13248;0.04724
0.13337;0.04741
0.132;0.04756
0.13387;0.04772
0.13503;0.04788
0.13429;0.04803
0.13524;0.04819
0.13583;0.04835
0.13508;0.04849
0.13798;0.04866
0.13624;0.04881
0.13793;0.04895
0.13862;0.04911
0.13703;0.04926
0.1392;0.04941
0.13759;0.04956
0.13792;0.04971
0.1401;0.04986
0.13911;0.05001
0.13987;0.05014
0.14113;0.05029
0.13947;0.05044
0.14203;0.05059
0.14268;0.05074
0.14209;0.05088
0.14364;0.05102
0.14095;0.05117
0.14257;0.05131
0.14511;0.05146
0.14157;0.0516
0.14438;0.05173
0.14445;0.05188
0.14411;0.05202
0.14639;0.05216
0.14559;0.05231
0.14477;0.05245
0.14822;0.0526
0.14613;0.05274
0.14622;0.05288
0.14883;0.05303
0.14689;0.05319
0.1484;0.05332
0.14969;0.05348
0.1481;0.05362
0.15035;0.05377
0.14968;0.05392
0.14961;0.05406
0.1521;0.0542
0.15183;0.05436
0.15155;0.0545
0.15249;0.05466
0.15108;0.05481
0.15304;0.05495
0.15386;0.05511
0.15377;0.05525
0.15461;0.05541
0.15295;0.05556
0.15508;0.05571
0.1569;0.05587
0.15451;0.05602
0.15687;0.05617
0.15712;0.05633
0.15542;0.05648
0.15912;0.05663
0.1567;0.05679
0.15755;0.05694
0.15954;0.05708
0.15891;0.05724
0.16036;0.05739
0.16126;0.05755
0.15923;0.05769
0.161;0.05785
0.16049;0.058
0.15988;0.05815
0.16151;0.0583
0.16154;0.05846
0.16218;0.05861
0.16418;0.05876
0.16265;0.05891
0.16378;0.05906
0.16497;0.0592
0.16449;0.05936
0.16574;0.05951
0.16506;0.05966
0.16552;0.05981
0.1671;0.05996
0.16565;0.06011
0.16728;0.06026
0.16808;0.06042
0.16653;0.06057
0.16909;0.06072
0.16915;0.06088
0.16731;0.06103
0.17042;0.06119
0.16919;0.06134
0.16979;0.0615
0.17145;0.06165
0.16984;0.0618
0.17136;0.06196
0.17232;0.06211
0.17092;0.06227
0.17305;0.06242
0.1731;0.06257
0.17282;0.06272
0.1741;0.06288
0.17375;0.06303
0.17365;0.06319
0.17532;0.06333
0.1746;0.06349
0.17654;0.06364
0.17553;0.06379
0.1758;0.06394
0.1778;0.0641
0.17662;0.06425
0.17879;0.0644
0.17958;0.06455
0.17794;0.0647
0.17885;0.06484
0.18005;0.065
0.17925;0.06515
0.18041;0.0653
0.18162;0.06545
0.18003;0.0656
0.1818;0.06575
0.18097;0.0659
0.18096;0.06605
0.1841;0.0662
0.1813;0.06635
0.18327;0.06649
0.184;0.06664
0.18302;0.06678
0.18481;0.06693
0.18468;0.06708
0.18499;0.06722
0.18709;0.06736
0.18492;0.06751
0.18589;0.06765
0.1885;0.0678
0.18704;0.06794
0.18781;0.06809
0.18816;0.06824
0.18737;0.06838
0.1895;0.06853
0.18728;0.06868
0.18926;0.06882
0.19101;0.06897
0.18863;0.06912
0.19113;0.06927
0.19221;0.06942
0.19082;0.06957
0.19206;0.06973
0.19185;0.06988
0.19158;0.07003
0.19289;0.07019
0.19204;0.07035
0.19334;0.0705
0.19472;0.07066
0.1937;0.0708
0.19664;0.07096
0.19512;0.07112
0.19483;0.07128
0.19742;0.07143
0.19587;0.07159
0.19727;0.07175
0.19942;0.07191
0.19637;0.07206
0.19821;0.07222
0.19962;0.07238
0.19812;0.07253
0.20077;0.07269
0.19972;0.07285
0.19922;0.073
0.2001;0.07316
0.20066;0.07332
0.2019;0.07348
0.20331;0.07364
0.20217;0.07379
0.20298;0.07394
0.20311;0.07411
0.20214;0.07426
0.20541;0.07441
0.20475;0.07458
0.20372;0.07473
0.2066;0.07489
0.20474;0.07505
0.20534;0.0752
0.20721;0.07536
0.20681;0.07551
0.20777;0.07567
0.20816;0.07583
0.20645;0.07599
0.21009;0.07615
0.20857;0.0763
0.20959;0.07645
0.21234;0.0766
0.20965;0.07676
0.21063;0.07692
0.21243;0.07707
0.20985;0.07722
0.21284;0.07737
0.21291;0.07753
0.21238;0.07768
0.21336;0.07783
0.21232;0.07798
0.2135;0.07813
0.21488;0.07829
0.2143;0.07844
0.21628;0.07859
0.21438;0.07874
0.21405;0.07889
0.21805;0.07904
0.21625;0.0792
0.217;0.07934
0.21851;0.07949
0.216;0.07965
0.21884;0.07979
0.21842;0.07994
0.21783;0.08009
0.21975;0.08024
0.22003;0.08039
0.2194;0.08053
0.22156;0.08069
0.22009;0.08084
0.22146;0.08099
0.22046;0.08114
0.22156;0.08128
0.2225;0.08143
0.22177;0.08158
0.22192;0.08172
0.22425;0.08187
0.22363;0.08202
0.22298;0.08216
0.22512;0.08231
0.22336;0.08246
0.22627;0.08261
0.22621;0.08276
0.2236;0.0829
0.22768;0.08304
0.22594;0.08319
0.2257;0.08334
0.22932;0.08348
0.22827;0.08363
0.2286;0.08378
0.22998;0.08393
0.22846;0.08407
0.22963;0.08422
0.2307;0.08437
0.2292;0.08452
0.23133;0.08467
0.23104;0.08482
0.23153;0.08496
0.23277;0.08511
0.23079;0.08526
0.23273;0.08541
0.23253;0.08556
0.23184;0.08571
0.23389;0.08586
0.23414;0.08601
0.2333;0.08616
0.23584;0.08631
0.23407;0.08646
0.23554;0.08662
0.23723;0.08677
0.23515;0.08692
0.23698;0.08707
0.23782;0.08723
0.23598;0.08738
0.23928;0.08754
0.23901;0.08769
0.23749;0.08785
0.23926;0.088
0.23914;0.08816
0.23942;0.08831
0.24142;0.08846
0.24114;0.08862
0.24188;0.08877
0.24117;0.08893
0.24204;0.08908
0.2433;0.08924
0.24238;0.08939
0.24348;0.08955
0.24404;0.0897
0.24344;0.08986
0.24425;0.09001
0.2458;0.09016
0.24414;0.09032
0.24632;0.09048
0.24654;0.09063
0.24584;0.09079
0.24715;0.09094
0.24815;0.0911
0.24717;0.09125
0.24954;0.0914
0.24776;0.09156
0.24814;0.09171
0.25016;0.09186
0.24774;0.09202
0.251;0.09217
0.25029;0.09233
0.25143;0.09248
0.25234;0.09262
0.25202;0.09278
0.25164;0.09294
0.25306;0.09308
0.25211;0.09324
0.25323;0.09339
0.25435;0.09354
0.25282;0.09369
0.25487;0.09384
0.25388;0.09399
0.25374;0.09414
0.25644;0.09429
0.25482;0.09444
0.25555;0.09459
0.25898;0.09474
0.25621;0.09489
0.25846;0.09504
0.25856;0.09519
0.25584;0.09534
0.2597;0.09549
0.25915;0.09564
0.25804;0.09578
0.26124;0.09593
0.25943;0.09609
0.26147;0.09623
0.26212;0.09637
0.26052;0.09652
0.26246;0.09666
0.26378;0.09682
0.26205;0.09697
0.26357;0.09711
0.26365;0.09726
0.2625;0.0974
0.26492;0.09755
0.26337;0.0977
0.26579;0.09785
0.2657;0.098
0.26466;0.09815
0.26622;0.0983
0.26618;0.09845
0.26511;0.09859
0.26767;0.09874
0.26659;0.09889
0.26686;0.09904
0.26871;0.09919
0.26837;0.09933
0.26875;0.09948
0.27141;0.09963
0.26911;0.09978
0.27074;0.09994
0.27155;0.10008
0.27051;0.10024
0.27294;0.10038
0.27205;0.10054
0.27079;0.10069
0.27379;0.10083
0.27231;0.10099
0.27338;0.10114
0.27349;0.10129
0.27391;0.10145
0.27511;0.10159
0.27553;0.10175
0.27481;0.1019
0.27624;0.10205
0.27666;0.10221
0.27574;0.10237
0.27812;0.10252
0.27633;0.10268
0.27697;0.10283
0.27861;0.10299
0.2765;0.10314
0.27938;0.1033
0.27992;0.10346
0.28033;0.10361
0.2815;0.10377
0.28079;0.10392
0.28028;0.10408
0.2823;0.10423
0.28034;0.10439
0.28275;0.10455
0.283;0.1047
0.2822;0.10485
0.28363;0.105
0.28341;0.10516
0.28321;0.10532
0.28644;0.10547
0.28576;0.10563
0.28507;0.10578
0.2863;0.10593
0.28551;0.10609
0.28544;0.10624
0.28737;0.10639
0.28596;0.10654
0.28789;0.10669
0.28949;0.10685
0.28765;0.107
0.29019;0.10715
0.28995;0.1073
0.28792;0.10745
0.29021;0.10761
0.28931;0.10776
0.29112;0.10791
0.29272;0.10806
0.28997;0.10821
0.2916;0.10836
0.29279;0.10851
0.29259;0.10866
0.2939;0.10882
0.29303;0.10897
0.29411;0.10912
0.29512;0.10927
0.29352;0.10942
0.29508;0.10957
0.29652;0.10972
0.29543;0.10988
0.2963;0.11003
0.29771;0.11017
0.29559;0.11032
0.29864;0.11047
0.29816;0.11062
0.29709;0.11077
0.30088;0.11092
0.30013;0.11107
0.29897;0.11122
0.30021;0.11137
0.29823;0.11153
0.30043;0.11167
0.30093;0.11182
0.29982;0.11197
0.30203;0.11212
0.30243;0.11228
0.30164;0.11243
0.30358;0.11257
0.30214;0.11273
0.30282;0.11287
0.30636;0.11303
0.30329;0.11318
0.3054;0.11332
0.30506;0.11347
0.30401;0.11363
0.3068;0.11377
0.30661;0.11392
0.3058;0.11407
0.30782;0.11422
0.30772;0.11438
0.30684;0.11453
0.30871;0.11467
0.30744;0.11482
0.30916;0.11497
0.31073;0.11512
0.30803;0.11528
0.31044;0.11543
0.31052;0.11557
0.30958;0.11573
0.3114;0.11588
0.31073;0.11604
0.31221;0.11618
0.31396;0.11633
0.31239;0.11649
0.31356;0.11664
0.31476;0.11679
0.31251;0.11695
0.31505;0.1171
0.31597;0.11725
0.31448;0.11741
0.31696;0.11755
0.3156;0.11771
0.31548;0.11787
0.31825;0.11802
0.31624;0.11818
0.31811;0.11833
0.31867;0.11849
0.31722;0.11865
0.31958;0.1188
0.321;0.11897
0.31889;0.11912
0.32056;0.11928
0.32021;0.11943
0.31971;0.11959
0.32184;0.11975
0.32045;0.1199
0.32252;0.12006
0.32365;0.12022
0.32212;0.12037
0.32331;0.12052
0.32406;0.12068
0.32394;0.12083
0.32532;0.12098
0.32497;0.12113
0.32447;0.12128
0.32678;0.12143
0.32588;0.12158
0.32534;0.12173
0.32863;0.12188
0.32645;0.12203
0.32761;0.12218
0.32806;0.12233
0.32789;0.12248
0.3299;0.12263
0.32903;0.12277
0.32929;0.12292
0.33099;0.12307
0.32944;0.12322
0.32983;0.12336
0.33322;0.12352
0.32973;0.12367
0.33088;0.12381
0.33331;0.12396
0.33129;0.1241
0.33408;0.12425
0.33441;0.12439
0.33259;0.12455
0.33511;0.12469
0.3334;0.12484
0.33409;0.12498
0.33674;0.12513
0.33517;0.12528
0.3359;0.12543
0.33717;0.12557
0.3357;0.12572
0.33814;0.12586
0.33702;0.12601
0.33679;0.12616
0.33962;0.12631
0.33889;0.12646
0.33833;0.1266
0.33954;0.12675
0.33901;0.12689
0.33912;0.12704
0.34222;0.1272
0.34015;0.12735
0.34179;0.1275
0.34164;0.12765
0.34148;0.12781
0.34417;0.12796
0.34358;0.12812
0.34344;0.12827
0.34426;0.12842
0.34319;0.12858
0.345;0.12873
0.34527;0.12889
0.34259;0.12904
0.34618;0.12919
0.3459;0.12935
0.34543;0.1295
0.3468;0.12965
0.34783;0.12981
0.34668;0.12996
0.34923;0.13011
0.3486;0.13027
0.3483;0.13042
0.34935;0.13057
0.34933;0.13072
0.35095;0.13087
0.35207;0.13102
0.35005;0.13117
0.35159;0.13131
0.35162;0.13146
0.35158;0.13161
0.3528;0.13176
0.35209;0.1319
0.35213;0.13205
0.35403;0.1322
0.35296;0.13235
0.35505;0.13249
0.35513;0.13264
0.35478;0.1328
0.35703;0.13294
0.35545;0.13309
0.35616;0.13324
0.35715;0.13339
0.3571;0.13354
0.35665;0.1337
0.35865;0.13385
0.35786;0.13401
0.35932;0.13417
0.35971;0.13432
0.35754;0.13449
0.35986;0.13465
0.3606;0.13481
0.35785;0.13496
0.3604;0.13513
0.3616;0.13528
0.3617;0.13544
0.36366;0.1356
0.3621;0.13576
0.36394;0.13592
0.36415;0.13609
0.36414;0.13625
0.3651;0.1364
0.3662;0.13656
0.36394;0.13671
0.36615;0.13688
0.36561;0.13703
0.36562;0.13718
0.36712;0.13734
0.36679;0.13749
0.36702;0.13765
0.36913;0.1378
0.36756;0.13796
0.36936;0.13811
0.36971;0.13826
0.36813;0.13842
0.37068;0.13858
0.37098;0.13873
0.37005;0.13889
0.37253;0.13904
0.3704;0.13919
0.37226;0.13934
0.37346;0.13949
0.37159;0.13965
0.37459;0.13979
0.37396;0.13995
0.37208;0.1401
0.3755;0.14025
0.37414;0.14039
0.37365;0.14054
0.3759;0.14069
0.37469;0.14083
0.3753;0.14098
0.37718;0.14113
0.37487;0.14127
0.37841;0.14142
0.37745;0.14157
0.37805;0.14171
0.37934;0.14186
0.37858;0.142
0.37841;0.14215
0.37971;0.14229
0.37807;0.14244
0.37927;0.14258
0.38103;0.14273
0.37827;0.14288
0.38043;0.14303
0.38195;0.14318
0.38156;0.14333
0.38259;0.14348
0.38216;0.14364
0.38273;0.14379
0.38425;0.14394
0.38475;0.14409
0.38477;0.14425
0.38612;0.1444
0.38474;0.14456
0.38607;0.14471
0.38615;0.14486
0.38438;0.14502
0.38805;0.14518
0.38829;0.14533
0.38666;0.14548
0.38954;0.14563
0.38673;0.14578
0.38868;0.14593
0.38969;0.14609
0.38868;0.14624
0.38916;0.14639
0.39097;0.14654
0.38941;0.14669
0.39193;0.14684
0.39137;0.14699
0.39076;0.14714
0.39272;0.14729
0.39268;0.14744
0.39276;0.14759
0.39295;0.14773
0.39339;0.14788
0.39371;0.14803
0.39424;0.14818
0.39316;0.14833
0.39641;0.14847
0.39563;0.14862
0.39366;0.14877
0.39833;0.14891
0.39679;0.14906
0.39531;0.14921
0.39846;0.14936
0.39714;0.14951
0.39753;0.14965
0.39919;0.1498
0.39733;0.14995
0.39956;0.15
